Data from Samples_AbsoluteIrradiance_00030.txt Node
Date: Tue Nov 05 13:26:48 MST 2019
User: wkolb
Spectrometer: FLMS05493
Trigger mode: 0
Integration Time (sec): 1.000000E-3
Scans to average: 20
Electric dark correction enabled: true
Nonlinearity correction enabled: true
Boxcar width: 0
XAxis mode: Wavelengths
Number of Pixels in Spectrum: 2048
>>>>>Begin Spectral Data<<<<<
340.355	0
340.733	0
341.111	0
341.488	-0
341.866	0
342.244	-0
342.621	-0
342.999	0
343.376	0
343.754	0
344.131	-0
344.509	0
344.886	0
345.264	-0
345.641	0
346.018	-0
346.396	0
346.773	0
347.15	0
347.527	0
347.904	0
348.281	0
348.658	0
349.035	0
349.412	0
349.789	0
350.166	0.01726387
350.543	0.01880052
350.919	0.01963082
351.296	0.01806838
351.673	0.01995191
352.05	0.02222826
352.426	0.0205974
352.803	0.0204919
353.179	0.0221554
353.556	0.02539668
353.932	0.02382536
354.309	0.03062104
354.685	0.02478504
355.061	0.02469277
355.438	0.0265825
355.814	0.02431123
356.19	0.02546604
356.566	0.02695083
356.942	0.02443522
357.319	0.02807825
357.695	0.02678912
358.071	0.02729637
358.447	0.02442744
358.823	0.02471058
359.199	0.02637804
359.574	0.02988762
359.95	0.02796658
360.326	0.02691029
360.702	0.03107957
361.077	0.02739742
361.453	0.03306093
361.829	0.02732612
362.204	0.0325254
362.58	0.03004049
362.955	0.03194465
363.331	0.02955891
363.706	0.03227701
364.082	0.03091175
364.457	0.03375685
364.832	0.03689548
365.208	0.03626308
365.583	0.03551961
365.958	0.0359093
366.333	0.04418461
366.708	0.03847106
367.083	0.03748917
367.459	0.0446599
367.834	0.03950081
368.208	0.04240127
368.583	0.04209702
368.958	0.03871112
369.333	0.04381793
369.708	0.04340107
370.083	0.04244161
370.457	0.04518235
370.832	0.03979571
371.207	0.04067491
371.581	0.0397269
371.956	0.04306338
372.33	0.03678743
372.705	0.03989708
373.079	0.03663493
373.454	0.0390153
373.828	0.03681796
374.202	0.04076111
374.577	0.03972948
374.951	0.03800579
375.325	0.04212317
375.699	0.04378801
376.073	0.05148741
376.448	0.04736816
376.822	0.05172144
377.196	0.0503875
377.57	0.05340304
377.943	0.0536406
378.317	0.05767889
378.691	0.05329387
379.065	0.04946342
379.439	0.04334586
379.812	0.04889769
380.186	0.05040813
380.56	0.04795687
380.933	0.05045568
381.307	0.04964143
381.68	0.04542555
382.054	0.04450537
382.427	0.03881554
382.801	0.03865716
383.174	0.03568899
383.548	0.0439763
383.921	0.04190281
384.294	0.04594197
384.667	0.05299613
385.04	0.05176081
385.414	0.04920685
385.787	0.05063501
386.16	0.05029525
386.533	0.05232542
386.906	0.05004667
387.279	0.05051915
387.651	0.05325848
388.024	0.05686721
388.397	0.05309036
388.77	0.0550067
389.143	0.0576664
389.515	0.06157174
389.888	0.06610414
390.26	0.06487969
390.633	0.06322381
391.006	0.0643696
391.378	0.06633233
391.751	0.05884957
392.123	0.0564672
392.495	0.05129441
392.868	0.0485672
393.24	0.04194353
393.612	0.0455878
393.984	0.04928867
394.356	0.05554481
394.729	0.06237683
395.101	0.06303016
395.473	0.06583342
395.845	0.05902378
396.217	0.05489784
396.589	0.05464336
396.96	0.05129446
397.332	0.05715724
397.704	0.07079557
398.076	0.07829836
398.448	0.07982414
398.819	0.08889013
399.191	0.0904379
399.562	0.09265392
399.934	0.09213841
400.306	0.09535219
400.677	0.0931867
401.048	0.09567206
401.42	0.09282856
401.791	0.09713798
402.163	0.09724218
402.534	0.09696433
402.905	0.1019438
403.276	0.10005681
403.647	0.09739215
404.018	0.09583674
404.39	0.09633894
404.761	0.09461924
405.132	0.0976245
405.503	0.09862505
405.873	0.09624927
406.244	0.09193951
406.615	0.09571516
406.986	0.09415148
407.357	0.09632472
407.727	0.10056264
408.098	0.10095182
408.469	0.1017206
408.839	0.10342381
409.21	0.10546111
409.58	0.0985622
409.951	0.09753897
410.321	0.09922864
410.692	0.10186714
411.062	0.10495014
411.432	0.10841186
411.802	0.11085101
412.173	0.11054491
412.543	0.11200731
412.913	0.11187561
413.283	0.11122193
413.653	0.11122476
414.023	0.11216326
414.393	0.1123576
414.763	0.11356447
415.133	0.11324014
415.503	0.11563486
415.873	0.11189356
416.242	0.11620027
416.612	0.11510341
416.982	0.11528373
417.351	0.11251974
417.721	0.11111621
418.091	0.11280597
418.46	0.11181531
418.83	0.11430985
419.199	0.11429483
419.568	0.11607752
419.938	0.11590903
420.307	0.12061997
420.676	0.12201319
421.046	0.12504235
421.415	0.1240139
421.784	0.12213274
422.153	0.12139587
422.522	0.11582102
422.891	0.1178096
423.26	0.12091657
423.629	0.12150886
423.998	0.12266605
424.367	0.12435246
424.736	0.12232603
425.105	0.12257193
425.473	0.12604941
425.842	0.12428365
426.211	0.12677872
426.579	0.12624917
426.948	0.12196125
427.316	0.12369466
427.685	0.11853814
428.053	0.12389112
428.422	0.12013319
428.79	0.11811132
429.159	0.12140391
429.527	0.11248039
429.895	0.11142452
430.263	0.10968043
430.632	0.11072268
431	0.11524809
431.368	0.12610312
431.736	0.13982156
432.104	0.14408819
432.472	0.14233526
432.84	0.14506872
433.208	0.15063459
433.575	0.14537978
433.943	0.14626198
434.311	0.14571674
434.679	0.1513875
435.046	0.1561203
435.414	0.15880505
435.782	0.1642458
436.149	0.1674918
436.517	0.16703287
436.884	0.16435776
437.252	0.16202763
437.619	0.16194785
437.986	0.16024673
438.354	0.15645729
438.721	0.15907261
439.088	0.16185236
439.455	0.16763948
439.823	0.17075509
440.19	0.17337418
440.557	0.17239739
440.924	0.1765416
441.291	0.18191779
441.658	0.18284533
442.025	0.19071566
442.391	0.18858171
442.758	0.18960916
443.125	0.19022404
443.492	0.18855968
443.858	0.19151575
444.225	0.19062335
444.592	0.19313685
444.958	0.19131439
445.325	0.1887834
445.691	0.18873844
446.058	0.18809893
446.424	0.19380883
446.79	0.19526807
447.157	0.20155374
447.523	0.20523595
447.889	0.20542526
448.255	0.20357458
448.622	0.20633048
448.988	0.2073858
449.354	0.20746871
449.72	0.21225305
450.086	0.22012979
450.452	0.21665913
450.818	0.2210209
451.184	0.22178928
451.549	0.22110251
451.915	0.21749189
452.281	0.21089318
452.647	0.20651072
453.012	0.20898702
453.378	0.20802763
453.743	0.21141546
454.109	0.2141228
454.474	0.21474015
454.84	0.21427189
455.205	0.21803126
455.571	0.22232071
455.936	0.22333303
456.301	0.22513772
456.666	0.22736106
457.032	0.22699451
457.397	0.22630216
457.762	0.22591313
458.127	0.22212394
458.492	0.22498557
458.857	0.22583162
459.222	0.22708554
459.587	0.22679023
459.952	0.23022927
460.317	0.23213191
460.681	0.23252333
461.046	0.23785044
461.411	0.23766596
461.775	0.24048127
462.14	0.23901595
462.505	0.24037021
462.869	0.24067528
463.234	0.23886662
463.598	0.23992588
463.962	0.24343138
464.327	0.23902438
464.691	0.23610937
465.055	0.23764904
465.42	0.23566739
465.784	0.2419299
466.148	0.2342428
466.512	0.23705137
466.876	0.23534156
467.24	0.23899334
467.604	0.23982108
467.968	0.2406297
468.332	0.2437572
468.696	0.24017939
469.06	0.24081307
469.423	0.24220007
469.787	0.23888519
470.151	0.2340377
470.515	0.23674647
470.878	0.24285431
471.242	0.24286984
471.605	0.24611013
471.969	0.25028689
472.332	0.24843289
472.696	0.24756117
473.059	0.24670993
473.422	0.24542182
473.785	0.25007561
474.149	0.24966834
474.512	0.25201461
474.875	0.25086914
475.238	0.24886897
475.601	0.24584035
475.964	0.24570095
476.327	0.24665656
476.69	0.24666887
477.053	0.24818184
477.416	0.25108644
477.779	0.25333371
478.141	0.25362639
478.504	0.25526871
478.867	0.25228883
479.229	0.25627483
479.592	0.25809352
479.955	0.25864794
480.317	0.25619958
480.68	0.25733577
481.042	0.25912937
481.404	0.25923331
481.767	0.25917312
482.129	0.25947876
482.491	0.25881068
482.854	0.25804847
483.216	0.2563037
483.578	0.25501308
483.94	0.25424053
484.302	0.25142404
484.664	0.24940563
485.026	0.24277944
485.388	0.23520677
485.75	0.22515931
486.112	0.22070208
486.473	0.22480439
486.835	0.23330067
487.197	0.23871924
487.559	0.24692593
487.92	0.25093045
488.282	0.25507053
488.643	0.25572227
489.005	0.25871902
489.366	0.26616455
489.728	0.26951088
490.089	0.27157574
490.45	0.27194194
490.812	0.27112441
491.173	0.27148061
491.534	0.26546241
491.895	0.26534752
492.256	0.26672688
492.617	0.27479199
492.978	0.27522922
493.339	0.28002093
493.7	0.28250435
494.061	0.28678888
494.422	0.29116799
494.783	0.29598747
495.144	0.29550491
495.504	0.29542494
495.865	0.29783783
496.226	0.30270019
496.586	0.30507582
496.947	0.30751369
497.308	0.30864799
497.668	0.30770492
498.028	0.30626735
498.389	0.30549333
498.749	0.30974117
499.109	0.31493126
499.47	0.31595565
499.83	0.32045792
500.19	0.31613273
500.55	0.31547312
500.91	0.3156624
501.27	0.31971286
501.63	0.32244193
501.99	0.33066278
502.35	0.33699698
502.71	0.34043824
503.07	0.34594353
503.43	0.34812236
503.79	0.35164992
504.149	0.35751745
504.509	0.36513125
504.869	0.37566833
505.228	0.38174776
505.588	0.39534269
505.947	0.40101806
506.307	0.40292655
506.666	0.40580007
507.025	0.40672872
507.385	0.40934647
507.744	0.41296019
508.103	0.42308635
508.462	0.42956004
508.822	0.44122094
509.181	0.44784078
509.54	0.45610471
509.899	0.45837978
510.258	0.46902269
510.617	0.47791897
510.976	0.48598475
511.335	0.49256208
511.693	0.50238407
512.052	0.50132105
512.411	0.50914209
512.77	0.51007149
513.128	0.51225655
513.487	0.518013
513.845	0.52152229
514.204	0.53096749
514.562	0.5392264
514.921	0.54969645
515.279	0.55379554
515.637	0.55912296
515.996	0.55002229
516.354	0.537535
516.712	0.52570816
517.07	0.52974056
517.428	0.54319042
517.787	0.55329545
518.145	0.56403085
518.503	0.57866892
518.861	0.60073796
519.218	0.61997247
519.576	0.6371036
519.934	0.64834895
520.292	0.6576286
520.65	0.6680822
521.007	0.68152395
521.365	0.69115779
521.723	0.69974642
522.08	0.70002804
522.438	0.70100071
522.795	0.7039593
523.153	0.71869826
523.51	0.73292825
523.867	0.75466819
524.225	0.76296034
524.582	0.76871269
524.939	0.77033505
525.296	0.771057
525.653	0.7625044
526.011	0.75031877
526.368	0.74002875
526.725	0.73742599
527.082	0.75102927
527.438	0.76262653
527.795	0.78839385
528.152	0.81420921
528.509	0.82648502
528.866	0.84957092
529.222	0.85432476
529.579	0.85306899
529.936	0.85850556
530.292	0.86874514
530.649	0.88189093
531.005	0.89004622
531.362	0.89201222
531.718	0.88429909
532.074	0.87298951
532.431	0.86639727
532.787	0.86172671
533.143	0.8802288
533.499	0.88767597
533.855	0.89873186
534.212	0.90728308
534.568	0.91968973
534.924	0.93559636
535.28	0.94457936
535.636	0.95378228
535.991	0.95180129
536.347	0.95007307
536.703	0.94193992
537.059	0.94733327
537.414	0.95270882
537.77	0.96309517
538.126	0.96523939
538.481	0.97404323
538.837	0.96858468
539.192	0.96111353
539.548	0.95287368
539.903	0.95236828
540.258	0.94982285
540.614	0.9572672
540.969	0.96330711
541.324	0.97969036
541.679	0.98622802
542.035	0.99623956
542.39	1.00101163
542.745	1.00468433
543.1	1.01042976
543.455	1.02074359
543.81	1.03237139
544.164	1.03843111
544.519	1.04397301
544.874	1.04965432
545.229	1.05621116
545.584	1.05619491
545.938	1.06210575
546.293	1.06543866
546.647	1.06612885
547.002	1.06591369
547.356	1.06242642
547.711	1.06178173
548.065	1.07344671
548.42	1.08262432
548.774	1.09717649
549.128	1.10022263
549.482	1.10407422
549.836	1.10606193
550.191	1.109552
550.545	1.10998727
550.899	1.11587894
551.253	1.12494101
551.607	1.13177201
551.961	1.13790639
552.314	1.1351612
552.668	1.1320655
553.022	1.13656651
553.376	1.14671559
553.73	1.1536515
554.083	1.16419947
554.437	1.17324855
554.79	1.17557122
555.144	1.17875089
555.497	1.17736596
555.851	1.17980092
556.204	1.17080676
556.557	1.16939734
556.911	1.1636476
557.264	1.16212094
557.617	1.17753092
557.97	1.17317457
558.323	1.16711739
558.677	1.15844418
559.03	1.15804825
559.383	1.1637596
559.736	1.17989288
560.088	1.18877337
560.441	1.2039885
560.794	1.21951064
561.147	1.21619124
561.5	1.21438259
561.852	1.21874805
562.205	1.2251195
562.557	1.23538648
562.91	1.24499307
563.263	1.24612052
563.615	1.2460162
563.967	1.25193383
564.32	1.25467248
564.672	1.25573017
565.024	1.25375027
565.377	1.24692703
565.729	1.2478001
566.081	1.24750552
566.433	1.26205304
566.785	1.27057216
567.137	1.28246257
567.489	1.28864606
567.841	1.28463947
568.193	1.28046473
568.545	1.27502991
568.897	1.2820375
569.248	1.28836389
569.6	1.28540213
569.952	1.28659986
570.303	1.27616371
570.655	1.26743625
571.006	1.27485446
571.358	1.28978874
571.709	1.31077067
572.061	1.32725126
572.412	1.34189071
572.763	1.34507566
573.115	1.34916009
573.466	1.35499824
573.817	1.36195176
574.168	1.35470027
574.519	1.35954775
574.87	1.35191415
575.221	1.34088001
575.572	1.34164533
575.923	1.34809103
576.274	1.36186989
576.625	1.36538949
576.976	1.36761951
577.326	1.36895913
577.677	1.36091517
578.028	1.35642522
578.378	1.36020347
578.729	1.3590132
579.079	1.37159545
579.43	1.38568148
579.78	1.39794101
580.131	1.40130103
580.481	1.40547524
580.831	1.41342101
581.182	1.42336607
581.532	1.43363183
581.882	1.44326306
582.232	1.45316476
582.582	1.4572105
582.932	1.46400217
583.282	1.46198859
583.632	1.46395641
583.982	1.47251667
584.332	1.46499899
584.682	1.46370871
585.031	1.45531232
585.381	1.44832825
585.731	1.44703829
586.08	1.44955314
586.43	1.46127083
586.779	1.45977901
587.129	1.46583857
587.478	1.45313791
587.828	1.4511713
588.177	1.41261669
588.526	1.36832443
588.876	1.33380305
589.225	1.3144366
589.574	1.31845142
589.923	1.34366338
590.272	1.38329405
590.621	1.41382219
590.97	1.4169656
591.319	1.42337228
591.668	1.4338902
592.017	1.43709118
592.366	1.44499039
592.715	1.4550472
593.063	1.46410001
593.412	1.46745954
593.761	1.46297913
594.109	1.46007804
594.458	1.45165228
594.806	1.45776853
595.155	1.46666452
595.503	1.4781905
595.851	1.49612306
596.2	1.5022465
596.548	1.50752872
596.896	1.51663213
597.244	1.51129666
597.593	1.51552576
597.941	1.5124092
598.289	1.51847803
598.637	1.51414614
598.985	1.52497523
599.333	1.53279102
599.681	1.53452646
600.028	1.53736444
600.376	1.54026837
600.724	1.54018921
601.072	1.54290325
601.419	1.53698023
601.767	1.5324175
602.114	1.53876896
602.462	1.54486853
602.809	1.56147907
603.157	1.57800069
603.504	1.5836844
603.851	1.59931771
604.199	1.59861188
604.546	1.59959652
604.893	1.60330432
605.24	1.59593699
605.587	1.59920824
605.935	1.58793755
606.282	1.59748406
606.629	1.60212135
606.975	1.60853289
607.322	1.60030866
607.669	1.59815626
608.016	1.5977337
608.363	1.5903046
608.709	1.5929554
609.056	1.59215854
609.403	1.59375086
609.749	1.583484
610.096	1.58146062
610.442	1.57084603
610.789	1.59242706
611.135	1.59041052
611.481	1.59298271
611.828	1.58590874
612.174	1.58319547
612.52	1.58550859
612.866	1.59041106
613.212	1.58095564
613.558	1.57073537
613.904	1.5705841
614.25	1.56560468
614.596	1.58181361
614.942	1.57965275
615.288	1.58701275
615.634	1.56466995
615.98	1.55856687
616.325	1.53956274
616.671	1.54930685
617.017	1.56462996
617.362	1.56930426
617.708	1.58883895
618.053	1.60048547
618.399	1.60004212
618.744	1.59618142
619.089	1.61399781
619.435	1.60269916
619.78	1.61720119
620.125	1.62140226
620.47	1.6276222
620.815	1.62743611
621.16	1.61989235
621.505	1.6112535
621.85	1.60502678
622.195	1.61085188
622.54	1.61022299
622.885	1.60196667
623.23	1.61018414
623.575	1.59985253
623.919	1.59743255
624.264	1.5843054
624.609	1.59011141
624.953	1.58523732
625.298	1.57688556
625.642	1.57925602
625.987	1.58994153
626.331	1.60402592
626.675	1.60421715
627.02	1.60750611
627.364	1.59384285
627.708	1.57492874
628.052	1.57344662
628.396	1.58199239
628.74	1.58681033
629.084	1.58633842
629.428	1.58062972
629.772	1.57775278
630.116	1.59124344
630.46	1.59400228
630.804	1.60401205
631.148	1.59920242
631.491	1.59660906
631.835	1.59411575
632.179	1.60676025
632.522	1.61549914
632.866	1.62870694
633.209	1.63133734
633.553	1.624976
633.896	1.63036222
634.239	1.63000984
634.583	1.64040623
634.926	1.64786804
635.269	1.64920113
635.612	1.64746241
635.955	1.64895323
636.298	1.64916368
636.641	1.65646753
636.984	1.66657414
637.327	1.68130836
637.67	1.68371708
638.013	1.68265239
638.356	1.68824667
638.699	1.68969969
639.041	1.6865834
639.384	1.67798518
639.726	1.66649757
640.069	1.66576859
640.412	1.66527043
640.754	1.66120094
641.096	1.65092886
641.439	1.65978685
641.781	1.66632602
642.123	1.66934784
642.466	1.67798892
642.808	1.67200295
643.15	1.68134608
643.492	1.66806167
643.834	1.67120087
644.176	1.67866577
644.518	1.67345796
644.86	1.6695155
645.202	1.66060005
645.544	1.65005002
645.885	1.63553855
646.227	1.62878457
646.569	1.62077923
646.91	1.60854099
647.252	1.5997389
647.594	1.5893358
647.935	1.5923662
648.277	1.59487299
648.618	1.58865615
648.959	1.57680096
649.301	1.56868295
649.642	1.56089616
649.983	1.58464515
650.324	1.60211629
650.665	1.62177484
651.007	1.60963541
651.348	1.60738298
651.689	1.58756972
652.029	1.59572812
652.37	1.60561721
652.711	1.61012469
653.052	1.61205218
653.393	1.60925291
653.734	1.6179009
654.074	1.60426663
654.415	1.58872198
654.755	1.57264882
655.096	1.53914708
655.436	1.49827061
655.777	1.43027599
656.117	1.37796539
656.458	1.36279451
656.798	1.3862857
657.138	1.43001061
657.478	1.46301797
657.818	1.49891824
658.159	1.52128786
658.499	1.54140555
658.839	1.54670058
659.179	1.54397596
659.519	1.54759834
659.858	1.55327601
660.198	1.55678582
660.538	1.5484423
660.878	1.56003151
661.217	1.55141917
661.557	1.55663219
661.897	1.54167395
662.236	1.54282354
662.576	1.54008863
662.915	1.52639298
663.255	1.52069602
663.594	1.51323949
663.933	1.49789464
664.273	1.49183457
664.612	1.48662287
664.951	1.47797901
665.29	1.4792717
665.629	1.48134406
665.968	1.46756492
666.307	1.46563752
666.646	1.45051249
666.985	1.45519378
667.324	1.43895342
667.663	1.43645465
668.002	1.42822445
668.34	1.42949474
668.679	1.42887676
669.018	1.42588857
669.356	1.41667033
669.695	1.41412166
670.033	1.40876707
670.372	1.40651216
670.71	1.39578831
671.048	1.39258517
671.387	1.38469177
671.725	1.37574268
672.063	1.37099577
672.401	1.37766681
672.739	1.37985056
673.077	1.3878879
673.415	1.38355681
673.753	1.38443975
674.091	1.37779726
674.429	1.38588489
674.767	1.38607407
675.105	1.37981215
675.443	1.37987069
675.78	1.38916883
676.118	1.3932778
676.456	1.38775158
676.793	1.39021046
677.131	1.38878738
677.468	1.38920205
677.805	1.39650861
678.143	1.40096716
678.48	1.39257102
678.817	1.40871397
679.155	1.4036412
679.492	1.41495512
679.829	1.41584418
680.166	1.42033996
680.503	1.41699053
680.84	1.42752987
681.177	1.43432831
681.514	1.44203598
681.851	1.44407531
682.187	1.45204313
682.524	1.45502638
682.861	1.46112986
683.198	1.46846317
683.534	1.47517296
683.871	1.47988017
684.207	1.47289866
684.544	1.49023011
684.88	1.50813669
685.217	1.52090242
685.553	1.5198543
685.889	1.50887201
686.225	1.47262003
686.562	1.39071544
686.898	1.30498315
687.234	1.26340764
687.57	1.27565444
687.906	1.3125822
688.242	1.34883893
688.578	1.3779654
688.914	1.39214261
689.249	1.41893952
689.585	1.44075415
689.921	1.46653833
690.257	1.48481297
690.592	1.51566579
690.928	1.54416817
691.263	1.56855661
691.599	1.5876732
691.934	1.60850084
692.27	1.61830479
692.605	1.62292357
692.94	1.62606616
693.275	1.61868699
693.611	1.61471522
693.946	1.60805941
694.281	1.61581708
694.616	1.61858839
694.951	1.63677717
695.286	1.65696553
695.621	1.66795183
695.956	1.69285212
696.291	1.72635404
696.625	1.75052059
696.96	1.77807495
697.295	1.77925984
697.629	1.79469723
697.964	1.78199907
698.298	1.77845302
698.633	1.77155013
698.967	1.75502072
699.302	1.75998709
699.636	1.74642773
699.97	1.74695388
700.305	1.73075104
700.639	1.73817141
700.973	1.73988507
701.307	1.72927011
701.641	1.73588677
701.975	1.73166261
702.309	1.74213525
702.643	1.75297395
702.977	1.77914492
703.311	1.7825117
703.645	1.80392805
703.978	1.79561839
704.312	1.82368094
704.646	1.83011444
704.979	1.83111674
705.313	1.83123798
705.646	1.83167415
705.98	1.84720842
706.313	1.83949665
706.646	1.84665097
706.98	1.84975584
707.313	1.86475723
707.646	1.86574938
707.979	1.85631567
708.313	1.86054333
708.646	1.86735053
708.979	1.85049819
709.312	1.86496423
709.645	1.86947777
709.977	1.87360802
710.31	1.88004138
710.643	1.86272278
710.976	1.87261341
711.308	1.88349222
711.641	1.87571313
711.974	1.86788023
712.306	1.88038656
712.639	1.87477533
712.971	1.86554987
713.304	1.86053213
713.636	1.864708
713.968	1.87187239
714.3	1.86141142
714.633	1.84382024
714.965	1.82797376
715.297	1.83615541
715.629	1.80829492
715.961	1.78080694
716.293	1.74000755
716.625	1.65456525
716.957	1.5788021
717.289	1.50645108
717.62	1.46326752
717.952	1.41558074
718.284	1.37376941
718.615	1.35018326
718.947	1.32893078
719.279	1.32281953
719.61	1.31314282
719.941	1.30540962
720.273	1.34093444
720.604	1.39130062
720.935	1.45688818
721.267	1.53708651
721.598	1.59841234
721.929	1.63497366
722.26	1.65173946
722.591	1.64627472
722.922	1.60096521
723.253	1.56416442
723.584	1.5149344
723.915	1.48418242
724.246	1.47526657
724.577	1.46288069
724.907	1.44732763
725.238	1.44985667
725.569	1.45302696
725.899	1.46738596
726.23	1.46845436
726.56	1.47745513
726.891	1.48680909
727.221	1.47459681
727.551	1.45750414
727.882	1.46790236
728.212	1.49494476
728.542	1.49405406
728.872	1.46355831
729.202	1.46350792
729.532	1.47993778
729.862	1.49947901
730.192	1.50628296
730.522	1.4960021
730.852	1.49851596
731.182	1.51079675
731.512	1.53275791
731.841	1.56652035
732.171	1.60027074
732.501	1.63868868
732.83	1.65623343
733.16	1.6696304
733.489	1.70350256
733.819	1.7413542
734.148	1.73294857
734.477	1.7428455
734.807	1.74832387
735.136	1.73533289
735.465	1.73856311
735.794	1.73184894
736.123	1.72165916
736.452	1.72883393
736.781	1.73453395
737.11	1.73511986
737.439	1.76026725
737.768	1.76164643
738.097	1.75983652
738.426	1.75490769
738.754	1.75266913
739.083	1.7413802
739.412	1.76220641
739.74	1.76720911
740.069	1.77940953
740.397	1.77894913
740.725	1.77908933
741.054	1.76835233
741.382	1.77257653
741.71	1.78633106
742.039	1.79222723
742.367	1.79219874
742.695	1.79823865
743.023	1.82375487
743.351	1.82791721
743.679	1.81260969
744.007	1.82120949
744.335	1.82068762
744.663	1.83540487
744.99	1.8262588
745.318	1.82967596
745.646	1.84053546
745.973	1.82069464
746.301	1.82889634
746.629	1.83507398
746.956	1.83924359
747.284	1.83543691
747.611	1.83926046
747.938	1.83006294
748.266	1.8334768
748.593	1.81960047
748.92	1.83822586
749.247	1.80763563
749.574	1.82236487
749.901	1.817921
750.228	1.80918535
750.555	1.808364
750.882	1.81454629
751.209	1.79642707
751.536	1.80808839
751.863	1.81196139
752.189	1.80722376
752.516	1.80787725
752.843	1.81057478
753.169	1.81564395
753.496	1.81037804
753.822	1.82654801
754.149	1.82166943
754.475	1.81832787
754.801	1.81884217
755.128	1.81805063
755.454	1.81113104
755.78	1.80588115
756.106	1.81555783
756.432	1.80363476
756.758	1.80015367
757.084	1.80676823
757.41	1.79459429
757.736	1.78301122
758.062	1.78999068
758.388	1.76133667
758.713	1.7208793
759.039	1.58870955
759.365	1.38552715
759.69	1.11422083
760.016	0.90524326
760.341	0.71089074
760.667	0.60731797
760.992	0.57391646
761.317	0.63207045
761.643	0.72673884
761.968	0.79216324
762.293	0.81117382
762.618	0.80027402
762.943	0.79724329
763.269	0.81210794
763.594	0.82356418
763.918	0.84016167
764.243	0.88597674
764.568	0.94721569
764.893	1.00580024
765.218	1.06560998
765.543	1.14618917
765.867	1.21660134
766.192	1.279248
766.516	1.35134739
766.841	1.41603101
767.165	1.46990207
767.49	1.52808819
767.814	1.57121395
768.138	1.60665165
768.463	1.64294986
768.787	1.65865477
769.111	1.67824448
769.435	1.6983932
769.759	1.72862376
770.083	1.71930983
770.407	1.73199892
770.731	1.73940133
771.055	1.76796356
771.379	1.72804598
771.703	1.72924842
772.026	1.74478112
772.35	1.74602443
772.674	1.73821691
772.997	1.75944744
773.321	1.75371757
773.644	1.76366688
773.968	1.75658069
774.291	1.75005902
774.614	1.75171626
774.938	1.73778546
775.261	1.74844547
775.584	1.74461482
775.907	1.76315516
776.23	1.76824113
776.553	1.76878667
776.876	1.76972225
777.199	1.76774685
777.522	1.76616241
777.845	1.76831363
778.168	1.76336855
778.491	1.76533009
778.813	1.76349506
779.136	1.74871889
779.459	1.76079829
779.781	1.75215467
780.104	1.75992617
780.426	1.75603081
780.748	1.75349818
781.071	1.75069631
781.393	1.76495577
781.715	1.7591479
782.038	1.77639712
782.36	1.76398006
782.682	1.77214967
783.004	1.7448291
783.326	1.74656701
783.648	1.74909974
783.97	1.74847105
784.292	1.74610798
784.613	1.73407728
784.935	1.7460754
785.257	1.74526634
785.578	1.74397839
785.9	1.74855968
786.222	1.74866795
786.543	1.72755885
786.865	1.72991933
787.186	1.71658467
787.507	1.71875124
787.829	1.70451252
788.15	1.6971997
788.471	1.68738599
788.792	1.68932156
789.113	1.67479863
789.434	1.65328484
789.755	1.65910361
790.076	1.66517075
790.397	1.66821713
790.718	1.65665594
791.039	1.65380235
791.36	1.6388384
791.681	1.65049715
792.001	1.64812523
792.322	1.66013069
792.642	1.64528922
792.963	1.6367341
793.283	1.65623987
793.604	1.64283682
793.924	1.65943873
794.244	1.66017985
794.565	1.66272011
794.885	1.67039935
795.205	1.66894501
795.525	1.66088432
795.845	1.65661086
796.165	1.62947573
796.485	1.64122803
796.805	1.64656385
797.125	1.6620551
797.445	1.6632315
797.765	1.67128396
798.084	1.68377257
798.404	1.67539081
798.724	1.69237838
799.043	1.65833629
799.363	1.6642399
799.682	1.66119518
800.002	1.63592127
800.321	1.63874661
800.64	1.63528899
800.96	1.6374468
801.279	1.6361142
801.598	1.6392555
801.917	1.64712569
802.236	1.63210547
802.555	1.63173026
802.874	1.62827241
803.193	1.6283127
803.512	1.63388664
803.831	1.62660976
804.149	1.61267597
804.468	1.61913025
804.787	1.61940929
805.105	1.63828211
805.424	1.64500935
805.743	1.64545896
806.061	1.66644015
806.379	1.67086676
806.698	1.69106628
807.016	1.67054738
807.334	1.66377278
807.653	1.66253907
807.971	1.65417714
808.289	1.64958462
808.607	1.63298766
808.925	1.63557034
809.243	1.62260569
809.561	1.61568316
809.879	1.61378563
810.197	1.59762922
810.514	1.61131028
810.832	1.59138663
811.15	1.57487017
811.467	1.56909899
811.785	1.55186773
812.102	1.54051253
812.42	1.54399891
812.737	1.49964492
813.055	1.46906515
813.372	1.42085003
813.689	1.39882196
814.006	1.37710407
814.324	1.3395459
814.641	1.31809345
814.958	1.27847195
815.275	1.27875648
815.592	1.25881514
815.909	1.24669379
816.226	1.19594989
816.542	1.18693521
816.859	1.214475
817.176	1.21836072
817.493	1.22552976
817.809	1.22805539
818.126	1.2088066
818.442	1.22409328
818.759	1.2457224
819.075	1.25997603
819.391	1.25587834
819.708	1.27479285
820.024	1.31189554
820.34	1.35799986
820.656	1.39517409
820.972	1.41967022
821.289	1.43075394
821.605	1.41709563
821.921	1.37973281
822.236	1.29654295
822.552	1.21643639
822.868	1.15527971
823.184	1.13433852
823.5	1.21643774
823.815	1.25504119
824.131	1.32042009
824.446	1.36443127
824.762	1.40814315
825.077	1.41224682
825.393	1.41955106
825.708	1.42306282
826.023	1.44061851
826.339	1.45805633
826.654	1.45592303
826.969	1.44770873
827.284	1.41594448
827.599	1.3766105
827.914	1.35858399
828.229	1.34518069
828.544	1.34817359
828.859	1.35926556
829.174	1.35426722
829.488	1.39060198
829.803	1.37845653
830.118	1.3763578
830.432	1.38720245
830.747	1.40479782
831.061	1.40077753
831.376	1.40504949
831.69	1.39186209
832.004	1.3924261
832.319	1.39825604
832.633	1.42501979
832.947	1.41678493
833.261	1.38868887
833.575	1.41049121
833.889	1.41517723
834.203	1.44567173
834.517	1.4733077
834.831	1.47818083
835.145	1.47767107
835.459	1.48146802
835.773	1.50671963
836.086	1.49400386
836.4	1.50618262
836.713	1.53936259
837.027	1.53277281
837.34	1.53037603
837.654	1.52902006
837.967	1.52761201
838.281	1.54685754
838.594	1.52860564
838.907	1.55711866
839.22	1.54904009
839.533	1.57611532
839.846	1.59025349
840.159	1.5821476
840.472	1.60000415
840.785	1.57001572
841.098	1.57330701
841.411	1.59357768
841.724	1.58769213
842.036	1.57214802
842.349	1.59413248
842.662	1.60061917
842.974	1.59339593
843.287	1.56825052
843.599	1.58235317
843.912	1.5736471
844.224	1.58312906
844.536	1.58595154
844.849	1.5768808
845.161	1.62098142
845.473	1.61601835
845.785	1.59021316
846.097	1.60644323
846.409	1.59072237
846.721	1.62004472
847.033	1.58426659
847.345	1.59350835
847.656	1.60562432
847.968	1.60265226
848.28	1.61195462
848.592	1.60558733
848.903	1.59630988
849.215	1.54589741
849.526	1.51620406
849.838	1.49234407
850.149	1.51512515
850.46	1.54045349
850.772	1.53925399
851.083	1.54290342
851.394	1.55302087
851.705	1.54035349
852.016	1.55147992
852.327	1.57340458
852.638	1.55462246
852.949	1.56191367
853.26	1.51397529
853.571	1.45942281
853.882	1.3831839
854.192	1.35413916
854.503	1.34699334
854.814	1.40000378
855.124	1.45520813
855.435	1.48313825
855.745	1.51692041
856.055	1.5136568
856.366	1.51829755
856.676	1.567718
856.986	1.5863342
857.297	1.59276234
857.607	1.58553016
857.917	1.59144457
858.227	1.58848392
858.537	1.58294603
858.847	1.56879932
859.157	1.56895113
859.467	1.58215564
859.776	1.56576084
860.086	1.56664582
860.396	1.5713664
860.705	1.56301585
861.015	1.58261213
861.325	1.55369009
861.634	1.58580868
861.943	1.58936483
862.253	1.58270754
862.562	1.57694325
862.871	1.58020206
863.181	1.59187463
863.49	1.58711409
863.799	1.55872222
864.108	1.57930148
864.417	1.58291829
864.726	1.54201219
865.035	1.56181796
865.344	1.56326253
865.653	1.48971562
865.961	1.42329778
866.27	1.39490936
866.579	1.39838596
866.887	1.4406419
867.196	1.4654514
867.504	1.50659207
867.813	1.50829209
868.121	1.52015802
868.43	1.51881124
868.738	1.49826198
869.046	1.52606789
869.354	1.51023514
869.662	1.59169138
869.971	1.55324731
870.279	1.52475058
870.587	1.56411159
870.894	1.54746444
871.202	1.53954938
871.51	1.54682531
871.818	1.54761417
872.126	1.53257572
872.433	1.57456822
872.741	1.57603155
873.049	1.54959883
873.356	1.52524624
873.664	1.5355182
873.971	1.52959642
874.278	1.50477081
874.586	1.53391112
874.893	1.53417007
875.2	1.52416549
875.507	1.52467268
875.814	1.54233001
876.121	1.54199274
876.428	1.54703863
876.735	1.53916932
877.042	1.53961214
877.349	1.49739124
877.656	1.49529712
877.963	1.54393112
878.269	1.52157413
878.576	1.55475484
878.883	1.5254359
879.189	1.51413785
879.496	1.53864658
879.802	1.54134126
880.108	1.52699639
880.415	1.46676432
880.721	1.47986909
881.027	1.48630331
881.333	1.51204537
881.639	1.51607597
881.946	1.52313932
882.252	1.49158793
882.558	1.50128859
882.863	1.5046162
883.169	1.50719696
883.475	1.52880293
883.781	1.4966338
884.087	1.53183932
884.392	1.50981235
884.698	1.49943996
885.003	1.51371392
885.309	1.51907994
885.614	1.50514903
885.92	1.50167357
886.225	1.47278329
886.53	1.49005869
886.836	1.4328515
887.141	1.46638814
887.446	1.45092182
887.751	1.4840023
888.056	1.51840573
888.361	1.51259026
888.666	1.46190784
888.971	1.47499325
889.275	1.48749273
889.58	1.46348861
889.885	1.48817854
890.19	1.48396681
890.494	1.46194962
890.799	1.49217935
891.103	1.45345953
891.408	1.45450096
891.712	1.47953268
892.016	1.43405104
892.321	1.43258203
892.625	1.40898207
892.929	1.37465133
893.233	1.4344472
893.537	1.38266702
893.841	1.38675641
894.145	1.31406286
894.449	1.2900109
894.753	1.27393782
895.057	1.26575901
895.361	1.26981744
895.664	1.19810913
895.968	1.21262057
896.272	1.19457876
896.575	1.13356543
896.879	1.14321577
897.182	1.10543418
897.486	1.0982308
897.789	1.09696376
898.092	1.13119369
898.396	1.05356683
898.699	0.99509579
899.002	0.97271046
899.305	0.98914725
899.608	0.97160133
899.911	0.98931581
900.214	1.00493284
900.517	0.94088055
900.82	0.98832569
901.122	0.96836947
901.425	0.99314414
901.728	1.01214196
902.03	0.9869529
902.333	1.00561726
902.635	0.98319433
902.938	1.08804574
903.24	1.091053
903.543	1.13084319
903.845	1.17260079
904.147	1.13832518
904.449	1.18329706
904.751	1.22404299
905.054	1.26338296
905.356	1.20235865
905.658	1.19983732
905.96	1.24611247
906.261	1.17100174
906.563	1.15528031
906.865	1.1729611
907.167	1.079322
907.468	1.05186069
907.77	1.03477386
908.072	1.02222328
908.373	1.01754619
908.674	0.97916247
908.976	0.96875746
909.277	0.92921644
909.579	0.98583885
909.88	0.90844767
910.181	0.93883147
910.482	0.95787112
910.783	0.98996911
911.084	1.00687655
911.385	1.06910382
911.686	0.95791299
911.987	1.01332495
912.288	1.01328935
912.589	1.04842906
912.889	0.94699091
913.19	0.9906534
913.491	0.93377226
913.791	0.98207541
914.092	0.99201398
914.392	0.9628492
914.692	1.00652616
914.993	0.94397948
915.293	0.9234127
915.593	0.89993605
915.894	0.91405727
916.194	0.98067027
916.494	0.93387217
916.794	0.97583566
917.094	0.93561058
917.394	0.93277656
917.694	0.91489588
917.993	0.92321511
918.293	0.94413603
918.593	0.99735671
918.892	1.02424932
919.192	0.96485034
919.492	1.02198111
919.791	1.06857905
920.091	1.09215888
920.39	1.06750832
920.689	1.10073756
920.989	1.10804344
921.288	1.10969958
921.587	1.07141834
921.886	1.13922312
922.185	1.1680303
922.484	1.09210163
922.783	1.14874534
923.082	1.09795152
923.381	1.11092344
923.68	1.10195438
923.978	1.08858858
924.277	1.04870524
924.576	1.07331385
924.874	1.00882934
925.173	1.08338459
925.471	1.06139559
925.77	1.05765971
926.068	1.06702756
926.367	1.08255906
926.665	1.09808558
926.963	1.04915744
927.261	1.05899203
927.559	1.06264826
927.857	0.97194092
928.155	1.02277789
928.453	0.95933605
928.751	0.92805335
929.049	0.91064912
929.347	0.87084545
929.645	0.80767462
929.942	0.7753472
930.24	0.76619148
930.537	0.72230489
930.835	0.69351744
931.132	0.65861902
931.43	0.63844346
931.727	0.55058033
932.025	0.55529466
932.322	0.49086211
932.619	0.54885808
932.916	0.45453494
933.213	0.37584363
933.51	0.36970985
933.807	0.36445301
934.104	0.34487003
934.401	0.24804753
934.698	0.35160177
934.995	0.30713835
935.291	0.37514653
935.588	0.32558505
935.885	0.29825107
936.181	0.27318052
936.478	0.26036941
936.774	0.2183483
937.071	0.27299291
937.367	0.30524887
937.663	0.26489544
937.96	0.33819036
938.256	0.18786348
938.552	0.24226454
938.848	0.31949909
939.144	0.40251171
939.44	0.39102061
939.736	0.4351358
940.032	0.46738781
940.328	0.49002525
940.623	0.44120644
940.919	0.57803098
941.215	0.55982168
941.51	0.53498647
941.806	0.59447646
942.101	0.50529316
942.397	0.55142369
942.692	0.62551869
942.987	0.55903474
943.283	0.45369013
943.578	0.5177345
943.873	0.60867653
944.168	0.51828182
944.463	0.47112377
944.758	0.46633097
945.053	0.37229826
945.348	0.34434879
945.643	0.474502
945.938	0.43393298
946.233	0.4562837
946.527	0.35626562
946.822	0.44806238
947.116	0.39215306
947.411	0.41614603
947.705	0.37207216
948	0.50820823
948.294	0.42318572
948.589	0.38680607
948.883	0.48315079
949.177	0.40995346
949.471	0.48899372
949.765	0.51349828
950.059	0.46769325
950.353	0.53484344
950.647	0.51251333
950.941	0.56595496
951.235	0.47497751
951.529	0.5633209
951.822	0.47241235
952.116	0.60596566
952.41	0.59800947
952.703	0.56723828
952.997	0.52255262
953.29	0.41775119
953.584	0.41074335
953.877	0.63042026
954.17	0.48925148
954.463	0.5784123
954.757	0.60555503
955.05	0.65221971
955.343	0.49900798
955.636	0.43249294
955.929	0.53483191
956.222	0.57131197
956.514	0.52148601
956.807	0.49620376
957.1	0.58384515
957.393	0.48004321
957.685	0.4590614
957.978	0.49793257
958.27	0.58736877
958.563	0.54627199
958.855	0.68393229
959.148	0.54420859
959.44	0.59362026
959.732	0.55545159
960.024	0.58284348
960.317	0.6295205
960.609	0.48114397
960.901	0.63377675
961.193	0.549194
961.485	0.66700667
961.777	0.78030072
962.068	0.56736228
962.36	0.73510748
962.652	0.53740688
962.943	0.531972
963.235	0.85999139
963.527	0.75420839
963.818	0.56649507
964.11	0.82045097
964.401	0.79715534
964.692	0.83566763
964.984	0.79768402
965.275	0.6687601
965.566	0.95952268
965.857	0.9400475
966.148	0.94076491
966.439	0.7802366
966.73	0.72175378
967.021	0.71524525
967.312	0.7227506
967.603	0.71886496
967.893	0.87167472
968.184	0.91587856
968.475	0.9829111
968.765	0.8969811
969.056	0.82333279
969.346	0.90319405
969.637	0.83603581
969.927	1.21371479
970.217	1.05422919
970.508	1.089326
970.798	1.10156937
971.088	0.98942254
971.378	1.10522101
971.668	1.23217164
971.958	1.34979201
972.248	0.94260365
972.538	0.98039248
972.828	1.05964666
973.117	1.12140065
973.407	1.18315358
973.697	0.93598521
973.986	1.15619393
974.276	1.15562605
974.565	1.21274386
974.855	1.13726924
975.144	0.82287681
975.433	0.97292553
975.723	0.92341493
976.012	1.36173983
976.301	0.97748288
976.59	0.77871236
976.879	1.04130861
977.168	1.05763945
977.457	0.97701
977.746	0.83689231
978.035	1.20364787
978.323	1.15854877
978.612	0.74986688
978.901	1.0447958
979.189	1.06892783
979.478	1.23839301
979.767	1.03147419
980.055	0.97396304
980.343	0.92450133
980.632	1.41113824
980.92	1.1111537
981.208	1.08287687
981.496	0.90168188
981.784	1.4420131
982.073	1.35277928
982.361	1.34347172
982.648	0.99968508
982.936	0.85265581
983.224	1.18155843
983.512	1.04524541
983.8	1.22449277
984.087	1.56727326
984.375	1.46087211
984.663	1.3711498
984.95	0.90433269
985.238	1.48471899
985.525	1.33170291
985.812	0.96650153
986.1	1.34630127
986.387	1.20646107
986.674	1.17625273
986.961	1.69979865
987.248	1.09226379
987.535	1.13273241
987.822	1.04859878
988.109	0.92017133
988.396	1.32458009
988.683	1.24681288
988.969	1.18182932
989.256	1.25988037
989.543	1.34509828
989.829	1.27578578
990.116	1.61957022
990.402	1.66751567
990.689	1.25193349
990.975	0.93702747
991.261	1.07592947
991.548	1.54943947
991.834	1.1802591
992.12	1.26462044
992.406	1.10886072
992.692	1.30576548
992.978	1.40983521
993.264	0.8861425
993.55	1.4574854
993.836	1.53228641
994.121	0.44943885
994.407	1.69854823
994.693	1.76277499
994.978	1.25695598
995.264	2.10922596
995.549	1.04717185
995.835	2.07192787
996.12	1.45030682
996.405	1.22085515
996.691	1.59291845
996.976	1.12341627
997.261	1.59518617
997.546	1.77905523
997.831	1.68126436
998.116	1.14625127
998.401	1.99700454
998.686	1.5225497
998.971	1.97760825
999.255	1.97531949
999.54	1.50272792
999.825	1.67213144
1000.109	1.61634179
1000.394	1.54291775
1000.678	0.47025
1000.963	0.29043534
1001.247	0.72562707
1001.531	1.3735429
1001.816	2.15128335
1002.1	1.71336609
1002.384	1.13812314
1002.668	2.18590969
1002.952	0.30094287
1003.236	1.69461869
1003.52	1.66532127
1003.804	1.85968157
1004.088	2.19225086
1004.371	1.75782379
1004.655	1.89705915
1004.939	1.67880105
1005.222	0.84610079
1005.506	2.56495197
1005.789	0.73686771
1006.073	1.68611733
1006.356	2.53243563
1006.64	2.53425135
1006.923	2.32999175
1007.206	1.60957205
1007.489	1.84607181
1007.772	2.51855691
1008.055	1.38763132
1008.338	2.0579349
1008.621	0.75428341
1008.904	1.47221647
1009.187	2.16242465
1009.47	2.96989494
1009.752	1.22320426
1010.035	2.34645789
1010.318	2.68353838
1010.6	3.28654459
1010.883	1.46427347
1011.165	2.27960464
1011.447	1.86092037
1011.73	2.22826099
1012.012	2.10101712
1012.294	1.35729739
1012.576	1.76223339
1012.858	1.02121076
1013.14	1.60560334
1013.422	2.41084355
1013.704	1.78594087
1013.986	1.44835181
1014.268	3.30034465
1014.55	-0.9089885
1014.831	1.88359736
1015.113	0.88481734
1015.395	2.2511444
1015.676	1.16956469
1015.958	0.69893395
1016.239	2.57171348
1016.52	2.83866261
1016.802	3.78343343
1017.083	2.42452731
1017.364	4.35651789
1017.645	0.631372
1017.926	2.72436374
1018.207	4.43783208
1018.488	1.00228769
1018.769	4.88662029
1019.05	3.16503106
1019.331	3.20060418
1019.612	0.20211525
1019.892	0.20217852
1020.173	0.20217852
